File: Scripts/hBN first lab/Project2_001.EMSA
#FORMAT      : EMSA/MAS Spectral Data File
#VERSION     : 1.0
#TITLE       :
#DATE        : 03-Nov-2021
#TIME        : 16:29
#OWNER       : EPMAUser
#NPOINTS     : 2048.
#NCOLUMNS    : 2.
#XUNITS      : Energy (keV)
#YUNITS      : Intensity
#DATATYPE    : XY
#XPERCHAN    : 0.01
#OFFSET      : 0.00
#CHOFFSET    : 0.
#XLABEL      : X-RAY ENERGY
#YLABEL      : X-RAY INTENSITY
#BEAMKV      : 15.000
#LIVETIME    : 28.230
#REALTIME    : 32.480
#SPECTRUM    : DATA BEGINS HERE
0.00, 0
0.02, 0
0.04, 0
0.06, 0
0.08, 0
0.10, 30
0.12, 102
0.14, 350
0.16, 631
0.18, 724
0.20, 512
0.22, 342
0.24, 470
0.26, 713
0.28, 643
0.30, 448
0.32, 359
0.34, 748
0.36, 1526
0.38, 2252
0.40, 1969
0.42, 1141
0.44, 1128
0.46, 2879
0.48, 8869
0.50, 18426
0.52, 22955
0.54, 16850
0.56, 6932
0.58, 1848
0.60, 447
0.62, 294
0.64, 289
0.66, 300
0.68, 314
0.70, 351
0.72, 355
0.74, 401
0.76, 414
0.78, 415
0.80, 412
0.82, 491
0.84, 490
0.86, 527
0.88, 515
0.90, 552
0.92, 594
0.94, 559
0.96, 610
0.98, 531
1.00, 567
1.02, 607
1.04, 614
1.06, 607
1.08, 637
1.10, 611
1.12, 601
1.14, 603
1.16, 705
1.18, 687
1.20, 696
1.22, 664
1.24, 761
1.26, 726
1.28, 803
1.30, 849
1.32, 930
1.34, 911
1.36, 1043
1.38, 1620
1.40, 4451
1.42, 12900
1.44, 29707
1.46, 49069
1.48, 56123
1.50, 45448
1.52, 26098
1.54, 11563
1.56, 4325
1.58, 1753
1.60, 822
1.62, 470
1.64, 420
1.66, 354
1.68, 340
1.70, 344
1.72, 357
1.74, 324
1.76, 384
1.78, 348
1.80, 329
1.82, 334
1.84, 348
1.86, 311
1.88, 340
1.90, 305
1.92, 314
1.94, 351
1.96, 432
1.98, 437
2.00, 494
2.02, 402
2.04, 377
2.06, 342
2.08, 276
2.10, 285
2.12, 340
2.14, 279
2.16, 300
2.18, 261
2.20, 315
2.22, 293
2.24, 302
2.26, 299
2.28, 281
2.30, 266
2.32, 293
2.34, 255
2.36, 302
2.38, 282
2.40, 283
2.42, 270
2.44, 258
2.46, 276
2.48, 257
2.50, 278
2.52, 282
2.54, 242
2.56, 271
2.58, 260
2.60, 293
2.62, 255
2.64, 279
2.66, 268
2.68, 247
2.70, 244
2.72, 256
2.74, 240
2.76, 270
2.78, 241
2.80, 231
2.82, 252
2.84, 250
2.86, 245
2.88, 282
2.90, 351
2.92, 388
2.94, 462
2.96, 474
2.98, 457
3.00, 367
3.02, 305
3.04, 246
3.06, 240
3.08, 216
3.10, 207
3.12, 212
3.14, 221
3.16, 213
3.18, 193
3.20, 201
3.22, 190
3.24, 195
3.26, 180
3.28, 211
3.30, 192
3.32, 183
3.34, 201
3.36, 203
3.38, 206
3.40, 178
3.42, 182
3.44, 202
3.46, 163
3.48, 182
3.50, 191
3.52, 170
3.54, 158
3.56, 191
3.58, 169
3.60, 170
3.62, 161
3.64, 166
3.66, 151
3.68, 177
3.70, 186
3.72, 149
3.74, 166
3.76, 164
3.78, 158
3.80, 147
3.82, 159
3.84, 142
3.86, 161
3.88, 179
3.90, 138
3.92, 142
3.94, 162
3.96, 136
3.98, 133
4.00, 149
4.02, 151
4.04, 151
4.06, 149
4.08, 136
4.10, 111
4.12, 129
4.14, 136
4.16, 150
4.18, 121
4.20, 124
4.22, 120
4.24, 111
4.26, 143
4.28, 97
4.30, 133
4.32, 123
4.34, 126
4.36, 131
4.38, 134
4.40, 116
4.42, 131
4.44, 123
4.46, 108
4.48, 121
4.50, 123
4.52, 114
4.54, 109
4.56, 102
4.58, 92
4.60, 111
4.62, 89
4.64, 102
4.66, 105
4.68, 103
4.70, 109
4.72, 90
4.74, 104
4.76, 104
4.78, 104
4.80, 91
4.82, 96
4.84, 90
4.86, 80
4.88, 99
4.90, 88
4.92, 86
4.94, 85
4.96, 89
4.98, 106
5.00, 98
5.02, 96
5.04, 93
5.06, 91
5.08, 104
5.10, 81
5.12, 89
5.14, 106
5.16, 96
5.18, 87
5.20, 87
5.22, 90
5.24, 92
5.26, 81
5.28, 94
5.30, 90
5.32, 65
5.34, 77
5.36, 82
5.38, 79
5.40, 81
5.42, 81
5.44, 85
5.46, 84
5.48, 71
5.50, 77
5.52, 79
5.54, 62
5.56, 71
5.58, 76
5.60, 75
5.62, 75
5.64, 51
5.66, 66
5.68, 71
5.70, 71
5.72, 77
5.74, 67
5.76, 77
5.78, 67
5.80, 65
5.82, 73
5.84, 49
5.86, 65
5.88, 53
5.90, 57
5.92, 69
5.94, 74
5.96, 77
5.98, 57
6.00, 53
6.02, 57
6.04, 59
6.06, 53
6.08, 66
6.10, 63
6.12, 57
6.14, 75
6.16, 51
6.18, 60
6.20, 66
6.22, 46
6.24, 61
6.26, 56
6.28, 58
6.30, 65
6.32, 56
6.34, 47
6.36, 60
6.38, 59
6.40, 66
6.42, 43
6.44, 69
6.46, 53
6.48, 44
6.50, 42
6.52, 43
6.54, 58
6.56, 60
6.58, 52
6.60, 50
6.62, 41
6.64, 56
6.66, 43
6.68, 35
6.70, 57
6.72, 36
6.74, 46
6.76, 45
6.78, 50
6.80, 36
6.82, 57
6.84, 43
6.86, 57
6.88, 37
6.90, 42
6.92, 42
6.94, 35
6.96, 54
6.98, 44
7.00, 40
7.02, 34
7.04, 32
7.06, 43
7.08, 48
7.10, 39
7.12, 45
7.14, 44
7.16, 39
7.18, 43
7.20, 36
7.22, 51
7.24, 54
7.26, 39
7.28, 29
7.30, 40
7.32, 34
7.34, 32
7.36, 42
7.38, 43
7.40, 36
7.42, 44
7.44, 43
7.46, 28
7.48, 31
7.50, 35
7.52, 40
7.54, 33
7.56, 37
7.58, 35
7.60, 42
7.62, 33
7.64, 30
7.66, 23
7.68, 44
7.70, 30
7.72, 29
7.74, 37
7.76, 30
7.78, 29
7.80, 25
7.82, 26
7.84, 24
7.86, 28
7.88, 31
7.90, 33
7.92, 27
7.94, 34
7.96, 34
7.98, 25
8.00, 37
8.02, 26
8.04, 24
8.06, 26
8.08, 28
8.10, 34
8.12, 34
8.14, 17
8.16, 31
8.18, 27
8.20, 35
8.22, 18
8.24, 19
8.26, 21
8.28, 19
8.30, 27
8.32, 25
8.34, 33
8.36, 20
8.38, 25
8.40, 29
8.42, 28
8.44, 26
8.46, 23
8.48, 25
8.50, 24
8.52, 16
8.54, 31
8.56, 27
8.58, 18
8.60, 32
8.62, 24
8.64, 24
8.66, 17
8.68, 17
8.70, 26
8.72, 18
8.74, 13
8.76, 19
8.78, 13
8.80, 25
8.82, 12
8.84, 16
8.86, 21
8.88, 24
8.90, 25
8.92, 20
8.94, 15
8.96, 21
8.98, 25
9.00, 21
9.02, 16
9.04, 21
9.06, 14
9.08, 15
9.10, 16
9.12, 25
9.14, 9
9.16, 12
9.18, 21
9.20, 17
9.22, 9
9.24, 21
9.26, 20
9.28, 22
9.30, 14
9.32, 15
9.34, 10
9.36, 14
9.38, 14
9.40, 31
9.42, 15
9.44, 12
9.46, 17
9.48, 17
9.50, 18
9.52, 14
9.54, 20
9.56, 15
9.58, 17
9.60, 13
9.62, 12
9.64, 13
9.66, 11
9.68, 10
9.70, 17
9.72, 19
9.74, 9
9.76, 18
9.78, 11
9.80, 14
9.82, 11
9.84, 16
9.86, 18
9.88, 10
9.90, 11
9.92, 12
9.94, 17
9.96, 5
9.98, 8
10.00, 12
10.02, 15
10.04, 8
10.06, 7
10.08, 7
10.10, 17
10.12, 8
10.14, 4
10.16, 14
10.18, 9
10.20, 10
10.22, 9
10.24, 16
10.26, 9
10.28, 12
10.30, 9
10.32, 5
10.34, 10
10.36, 12
10.38, 11
10.40, 7
10.42, 6
10.44, 7
10.46, 8
10.48, 10
10.50, 8
10.52, 9
10.54, 6
10.56, 8
10.58, 9
10.60, 10
10.62, 11
10.64, 8
10.66, 7
10.68, 4
10.70, 10
10.72, 9
10.74, 11
10.76, 5
10.78, 12
10.80, 8
10.82, 8
10.84, 8
10.86, 9
10.88, 11
10.90, 10
10.92, 9
10.94, 7
10.96, 7
10.98, 10
11.00, 7
11.02, 9
11.04, 7
11.06, 8
11.08, 4
11.10, 5
11.12, 2
11.14, 7
11.16, 3
11.18, 6
11.20, 6
11.22, 2
11.24, 9
11.26, 6
11.28, 5
11.30, 6
11.32, 6
11.34, 5
11.36, 7
11.38, 8
11.40, 4
11.42, 2
11.44, 3
11.46, 10
11.48, 7
11.50, 5
11.52, 2
11.54, 3
11.56, 6
11.58, 6
11.60, 5
11.62, 4
11.64, 5
11.66, 7
11.68, 3
11.70, 8
11.72, 1
11.74, 7
11.76, 3
11.78, 3
11.80, 4
11.82, 3
11.84, 3
11.86, 3
11.88, 3
11.90, 3
11.92, 2
11.94, 2
11.96, 1
11.98, 6
12.00, 4
12.02, 3
12.04, 2
12.06, 4
12.08, 3
12.10, 4
12.12, 2
12.14, 2
12.16, 4
12.18, 6
12.20, 3
12.22, 3
12.24, 0
12.26, 2
12.28, 0
12.30, 3
12.32, 1
12.34, 2
12.36, 4
12.38, 6
12.40, 1
12.42, 0
12.44, 2
12.46, 4
12.48, 3
12.50, 3
12.52, 1
12.54, 3
12.56, 2
12.58, 2
12.60, 1
12.62, 1
12.64, 1
12.66, 1
12.68, 1
12.70, 1
12.72, 3
12.74, 2
12.76, 2
12.78, 2
12.80, 2
12.82, 0
12.84, 1
12.86, 2
12.88, 0
12.90, 5
12.92, 1
12.94, 2
12.96, 5
12.98, 2
13.00, 3
13.02, 4
13.04, 0
13.06, 3
13.08, 0
13.10, 1
13.12, 2
13.14, 1
13.16, 2
13.18, 1
13.20, 0
13.22, 0
13.24, 2
13.26, 0
13.28, 0
13.30, 0
13.32, 0
13.34, 0
13.36, 2
13.38, 3
13.40, 2
13.42, 2
13.44, 0
13.46, 3
13.48, 1
13.50, 0
13.52, 0
13.54, 0
13.56, 3
13.58, 0
13.60, 0
13.62, 0
13.64, 0
13.66, 0
13.68, 0
13.70, 0
13.72, 0
13.74, 0
13.76, 1
13.78, 0
13.80, 0
13.82, 0
13.84, 0
13.86, 1
13.88, 0
13.90, 0
13.92, 0
13.94, 0
13.96, 1
13.98, 0
14.00, 0
14.02, 0
14.04, 0
14.06, 1
14.08, 0
14.10, 0
14.12, 0
14.14, 0
14.16, 0
14.18, 0
14.20, 1
14.22, 0
14.24, 0
14.26, 0
14.28, 0
14.30, 1
14.32, 0
14.34, 0
14.36, 0
14.38, 1
14.40, 0
14.42, 0
14.44, 0
14.46, 0
14.48, 0
14.50, 0
14.52, 0
14.54, 0
14.56, 0
14.58, 0
14.60, 0
14.62, 0
14.64, 0
14.66, 0
14.68, 0
14.70, 0
14.72, 0
14.74, 0
14.76, 0
14.78, 0
14.80, 0
14.82, 0
14.84, 0
14.86, 0
14.88, 0
14.90, 0
14.92, 0
14.94, 0
14.96, 0
14.98, 0
15.00, 0
15.02, 0
15.04, 0
15.06, 0
15.08, 0
15.10, 0
15.12, 0
15.14, 0
15.16, 0
15.18, 0
15.20, 0
15.22, 0
15.24, 0
15.26, 0
15.28, 0
15.30, 0
15.32, 0
15.34, 0
15.36, 0
15.38, 0
15.40, 0
15.42, 0
15.44, 0
15.46, 0
15.48, 0
15.50, 0
15.52, 0
15.54, 0
15.56, 0
15.58, 0
15.60, 0
15.62, 0
15.64, 0
15.66, 0
15.68, 0
15.70, 0
15.72, 0
15.74, 0
15.76, 0
15.78, 0
15.80, 0
15.82, 0
15.84, 0
15.86, 0
15.88, 0
15.90, 0
15.92, 0
15.94, 0
15.96, 0
15.98, 0
16.00, 0
16.02, 0
16.04, 0
16.06, 0
16.08, 0
16.10, 0
16.12, 0
16.14, 0
16.16, 0
16.18, 0
16.20, 0
16.22, 0
16.24, 0
16.26, 0
16.28, 0
16.30, 0
16.32, 0
16.34, 0
16.36, 0
16.38, 0
16.40, 0
16.42, 0
16.44, 0
16.46, 0
16.48, 0
16.50, 0
16.52, 0
16.54, 0
16.56, 0
16.58, 0
16.60, 0
16.62, 0
16.64, 0
16.66, 0
16.68, 0
16.70, 0
16.72, 0
16.74, 0
16.76, 0
16.78, 0
16.80, 0
16.82, 0
16.84, 0
16.86, 0
16.88, 0
16.90, 0
16.92, 0
16.94, 0
16.96, 0
16.98, 0
17.00, 0
17.02, 0
17.04, 0
17.06, 0
17.08, 0
17.10, 0
17.12, 0
17.14, 0
17.16, 0
17.18, 0
17.20, 0
17.22, 0
17.24, 0
17.26, 0
17.28, 0
17.30, 0
17.32, 0
17.34, 0
17.36, 0
17.38, 0
17.40, 0
17.42, 0
17.44, 0
17.46, 0
17.48, 0
17.50, 0
17.52, 0
17.54, 0
17.56, 0
17.58, 0
17.60, 0
17.62, 0
17.64, 0
17.66, 0
17.68, 0
17.70, 0
17.72, 0
17.74, 0
17.76, 0
17.78, 0
17.80, 0
17.82, 0
17.84, 0
17.86, 0
17.88, 0
17.90, 0
17.92, 0
17.94, 0
17.96, 0
17.98, 0
18.00, 0
18.02, 0
18.04, 0
18.06, 0
18.08, 0
18.10, 0
18.12, 0
18.14, 0
18.16, 0
18.18, 0
18.20, 0
18.22, 0
18.24, 0
18.26, 0
18.28, 0
18.30, 0
18.32, 0
18.34, 0
18.36, 0
18.38, 0
18.40, 0
18.42, 0
18.44, 0
18.46, 0
18.48, 0
18.50, 0
18.52, 0
18.54, 0
18.56, 0
18.58, 0
18.60, 0
18.62, 0
18.64, 1
18.66, 0
18.68, 0
18.70, 0
18.72, 0
18.74, 0
18.76, 0
18.78, 0
18.80, 0
18.82, 0
18.84, 0
18.86, 0
18.88, 0
18.90, 0
18.92, 0
18.94, 0
18.96, 0
18.98, 0
19.00, 0
19.02, 0
19.04, 0
19.06, 0
19.08, 0
19.10, 0
19.12, 0
19.14, 0
19.16, 0
19.18, 0
19.20, 0
19.22, 0
19.24, 0
19.26, 0
19.28, 0
19.30, 0
19.32, 0
19.34, 0
19.36, 0
19.38, 0
19.40, 0
19.42, 0
19.44, 0
19.46, 0
19.48, 0
19.50, 0
19.52, 0
19.54, 0
19.56, 0
19.58, 0
19.60, 0
19.62, 0
19.64, 0
19.66, 0
19.68, 0
19.70, 0
19.72, 0
19.74, 0
19.76, 0
19.78, 0
19.80, 0
19.82, 0
19.84, 0
19.86, 0
19.88, 0
19.90, 0
19.92, 0
19.94, 0
19.96, 0
19.98, 0
20.00, 0
20.02, 0
20.04, 0
20.06, 0
20.08, 0
20.10, 0
20.12, 0
20.14, 0
20.16, 0
20.18, 0
20.20, 0
20.22, 0
20.24, 0
20.26, 0
20.28, 0
20.30, 0
20.32, 0
20.34, 0
20.36, 0
20.38, 0
20.40, 0
20.42, 0
20.44, 0
20.46, 0
20.47, 0
#ENDOFDATA   :