File: Scripts/hBN second lab/RAW output/bn5kv/Project_.EMSA
#FORMAT      : EMSA/MAS Spectral Data File
#VERSION     : 1.0
#TITLE       : [MAP 1]
#DATE        : 24-Nov-2021
#TIME        : 15:48
#OWNER       : EPMAUser
#NPOINTS     : 2048.
#NCOLUMNS    : 2.
#XUNITS      : Energy (keV)
#YUNITS      : Intensity
#DATATYPE    : XY
#XPERCHAN    : 0.01
#OFFSET      : 0.00
#CHOFFSET    : 0.
#XLABEL      : X-RAY ENERGY
#YLABEL      : X-RAY INTENSITY
#BEAMKV      : 5.000
#LIVETIME    : 190.140
#REALTIME    : 196.600
#SPECTRUM    : DATA BEGINS HERE
0.00, 0
0.02, 0
0.04, 0
0.06, 0
0.08, 0
0.10, 0
0.12, 0
0.14, 0
0.16, 23011
0.18, 22378
0.20, 22307
0.22, 23503
0.24, 25741
0.26, 27557
0.28, 28125
0.30, 31855
0.32, 40727
0.34, 54418
0.36, 69042
0.38, 76282
0.40, 72112
0.42, 60638
0.44, 49002
0.46, 46338
0.48, 52095
0.50, 59992
0.52, 62506
0.54, 54923
0.56, 40899
0.58, 26206
0.60, 15091
0.62, 8862
0.64, 6355
0.66, 5146
0.68, 5079
0.70, 4912
0.72, 5011
0.74, 4999
0.76, 5024
0.78, 5040
0.80, 4988
0.82, 4970
0.84, 4824
0.86, 4880
0.88, 4767
0.90, 4690
0.92, 4564
0.94, 4467
0.96, 4393
0.98, 4337
1.00, 4189
1.02, 4241
1.04, 4152
1.06, 3854
1.08, 3835
1.10, 3789
1.12, 3673
1.14, 3626
1.16, 3597
1.18, 3366
1.20, 3427
1.22, 3343
1.24, 3359
1.26, 3149
1.28, 3265
1.30, 3079
1.32, 3201
1.34, 3473
1.36, 4257
1.38, 6257
1.40, 9577
1.42, 14394
1.44, 20040
1.46, 24436
1.48, 26159
1.50, 23604
1.52, 18629
1.54, 12948
1.56, 8328
1.58, 5166
1.60, 3353
1.62, 2462
1.64, 2114
1.66, 1941
1.68, 1801
1.70, 1888
1.72, 1727
1.74, 1721
1.76, 1751
1.78, 1563
1.80, 1503
1.82, 1474
1.84, 1491
1.86, 1431
1.88, 1356
1.90, 1301
1.92, 1252
1.94, 1211
1.96, 1189
1.98, 1263
2.00, 1177
2.02, 1125
2.04, 1049
2.06, 1074
2.08, 993
2.10, 936
2.12, 900
2.14, 905
2.16, 875
2.18, 854
2.20, 836
2.22, 835
2.24, 783
2.26, 767
2.28, 732
2.30, 726
2.32, 717
2.34, 668
2.36, 680
2.38, 657
2.40, 652
2.42, 618
2.44, 581
2.46, 568
2.48, 516
2.50, 521
2.52, 501
2.54, 493
2.56, 460
2.58, 470
2.60, 427
2.62, 421
2.64, 404
2.66, 399
2.68, 374
2.70, 370
2.72, 340
2.74, 337
2.76, 315
2.78, 319
2.80, 323
2.82, 305
2.84, 307
2.86, 277
2.88, 296
2.90, 258
2.92, 276
2.94, 256
2.96, 215
2.98, 220
3.00, 203
3.02, 182
3.04, 175
3.06, 194
3.08, 164
3.10, 143
3.12, 131
3.14, 160
3.16, 133
3.18, 140
3.20, 123
3.22, 112
3.24, 88
3.26, 84
3.28, 74
3.30, 78
3.32, 72
3.34, 67
3.36, 70
3.38, 60
3.40, 45
3.42, 43
3.44, 35
3.46, 39
3.48, 30
3.50, 27
3.52, 16
3.54, 12
3.56, 8
3.58, 8
3.60, 8
3.62, 6
3.64, 6
3.66, 5
3.68, 5
3.70, 4
3.72, 3
3.74, 0
3.76, 2
3.78, 2
3.80, 3
3.82, 2
3.84, 1
3.86, 2
3.88, 2
3.90, 0
3.92, 0
3.94, 0
3.96, 0
3.98, 2
4.00, 4
4.02, 0
4.04, 0
4.06, 1
4.08, 1
4.10, 0
4.12, 1
4.14, 1
4.16, 0
4.18, 0
4.20, 0
4.22, 0
4.24, 1
4.26, 2
4.28, 1
4.30, 2
4.32, 1
4.34, 2
4.36, 1
4.38, 0
4.40, 0
4.42, 0
4.44, 0
4.46, 0
4.48, 0
4.50, 0
4.52, 2
4.54, 1
4.56, 0
4.58, 0
4.60, 0
4.62, 0
4.64, 1
4.66, 1
4.68, 1
4.70, 0
4.72, 0
4.74, 0
4.76, 1
4.78, 0
4.80, 0
4.82, 1
4.84, 0
4.86, 0
4.88, 0
4.90, 1
4.92, 0
4.94, 0
4.96, 0
4.98, 0
5.00, 0
5.02, 0
5.04, 0
5.06, 0
5.08, 0
5.10, 1
5.12, 0
5.14, 0
5.16, 0
5.18, 0
5.20, 0
5.22, 0
5.24, 0
5.26, 0
5.28, 0
5.30, 0
5.32, 0
5.34, 0
5.36, 0
5.38, 0
5.40, 0
5.42, 0
5.44, 0
5.46, 0
5.48, 0
5.50, 0
5.52, 0
5.54, 0
5.56, 0
5.58, 0
5.60, 0
5.62, 0
5.64, 0
5.66, 0
5.68, 0
5.70, 0
5.72, 0
5.74, 0
5.76, 0
5.78, 0
5.80, 0
5.82, 0
5.84, 0
5.86, 0
5.88, 0
5.90, 0
5.92, 0
5.94, 0
5.96, 0
5.98, 0
6.00, 0
6.02, 0
6.04, 0
6.06, 0
6.08, 0
6.10, 0
6.12, 0
6.14, 0
6.16, 0
6.18, 0
6.20, 0
6.22, 0
6.24, 0
6.26, 0
6.28, 0
6.30, 0
6.32, 0
6.34, 0
6.36, 0
6.38, 0
6.40, 0
6.42, 0
6.44, 0
6.46, 0
6.48, 0
6.50, 0
6.52, 0
6.54, 0
6.56, 0
6.58, 0
6.60, 0
6.62, 0
6.64, 0
6.66, 0
6.68, 0
6.70, 0
6.72, 0
6.74, 0
6.76, 0
6.78, 0
6.80, 0
6.82, 0
6.84, 0
6.86, 0
6.88, 0
6.90, 0
6.92, 0
6.94, 0
6.96, 0
6.98, 0
7.00, 0
7.02, 0
7.04, 0
7.06, 0
7.08, 0
7.10, 0
7.12, 0
7.14, 0
7.16, 0
7.18, 0
7.20, 0
7.22, 0
7.24, 0
7.26, 0
7.28, 0
7.30, 0
7.32, 0
7.34, 0
7.36, 0
7.38, 0
7.40, 0
7.42, 0
7.44, 0
7.46, 0
7.48, 0
7.50, 0
7.52, 0
7.54, 0
7.56, 0
7.58, 0
7.60, 0
7.62, 0
7.64, 0
7.66, 0
7.68, 0
7.70, 0
7.72, 0
7.74, 0
7.76, 0
7.78, 0
7.80, 0
7.82, 0
7.84, 0
7.86, 0
7.88, 0
7.90, 0
7.92, 0
7.94, 0
7.96, 0
7.98, 0
8.00, 0
8.02, 0
8.04, 0
8.06, 0
8.08, 0
8.10, 0
8.12, 0
8.14, 0
8.16, 0
8.18, 0
8.20, 0
8.22, 0
8.24, 0
8.26, 0
8.28, 0
8.30, 0
8.32, 0
8.34, 0
8.36, 0
8.38, 0
8.40, 0
8.42, 0
8.44, 0
8.46, 0
8.48, 0
8.50, 0
8.52, 0
8.54, 0
8.56, 0
8.58, 0
8.60, 0
8.62, 0
8.64, 0
8.66, 0
8.68, 0
8.70, 0
8.72, 0
8.74, 0
8.76, 0
8.78, 0
8.80, 0
8.82, 0
8.84, 0
8.86, 0
8.88, 0
8.90, 0
8.92, 0
8.94, 0
8.96, 0
8.98, 0
9.00, 0
9.02, 0
9.04, 0
9.06, 0
9.08, 0
9.10, 0
9.12, 0
9.14, 0
9.16, 0
9.18, 0
9.20, 0
9.22, 0
9.24, 0
9.26, 0
9.28, 0
9.30, 0
9.32, 0
9.34, 0
9.36, 0
9.38, 0
9.40, 0
9.42, 0
9.44, 0
9.46, 0
9.48, 0
9.50, 0
9.52, 0
9.54, 0
9.56, 0
9.58, 0
9.60, 0
9.62, 0
9.64, 0
9.66, 0
9.68, 0
9.70, 0
9.72, 0
9.74, 0
9.76, 0
9.78, 0
9.80, 0
9.82, 0
9.84, 0
9.86, 0
9.88, 0
9.90, 0
9.92, 0
9.94, 0
9.96, 0
9.98, 0
10.00, 0
10.02, 0
10.04, 0
10.06, 0
10.08, 0
10.10, 0
10.12, 0
10.14, 0
10.16, 0
10.18, 0
10.20, 0
10.22, 0
10.24, 0
10.26, 0
10.28, 0
10.30, 0
10.32, 0
10.34, 0
10.36, 0
10.38, 0
10.40, 0
10.42, 0
10.44, 0
10.46, 0
10.48, 0
10.50, 0
10.52, 0
10.54, 0
10.56, 0
10.58, 0
10.60, 0
10.62, 0
10.64, 0
10.66, 0
10.68, 0
10.70, 0
10.72, 0
10.74, 0
10.76, 0
10.78, 0
10.80, 0
10.82, 0
10.84, 0
10.86, 0
10.88, 0
10.90, 0
10.92, 0
10.94, 0
10.96, 0
10.98, 0
11.00, 0
11.02, 0
11.04, 0
11.06, 0
11.08, 0
11.10, 0
11.12, 0
11.14, 0
11.16, 0
11.18, 0
11.20, 0
11.22, 0
11.24, 0
11.26, 0
11.28, 0
11.30, 0
11.32, 0
11.34, 0
11.36, 0
11.38, 0
11.40, 0
11.42, 0
11.44, 0
11.46, 0
11.48, 0
11.50, 0
11.52, 0
11.54, 0
11.56, 0
11.58, 0
11.60, 0
11.62, 0
11.64, 0
11.66, 0
11.68, 0
11.70, 0
11.72, 0
11.74, 0
11.76, 0
11.78, 0
11.80, 0
11.82, 0
11.84, 0
11.86, 0
11.88, 0
11.90, 0
11.92, 0
11.94, 0
11.96, 0
11.98, 0
12.00, 0
12.02, 0
12.04, 0
12.06, 0
12.08, 0
12.10, 0
12.12, 0
12.14, 0
12.16, 0
12.18, 0
12.20, 0
12.22, 0
12.24, 0
12.26, 0
12.28, 0
12.30, 0
12.32, 0
12.34, 0
12.36, 0
12.38, 0
12.40, 0
12.42, 0
12.44, 0
12.46, 0
12.48, 0
12.50, 0
12.52, 0
12.54, 0
12.56, 0
12.58, 0
12.60, 0
12.62, 0
12.64, 0
12.66, 0
12.68, 0
12.70, 0
12.72, 0
12.74, 0
12.76, 0
12.78, 0
12.80, 0
12.82, 0
12.84, 0
12.86, 0
12.88, 0
12.90, 0
12.92, 0
12.94, 0
12.96, 0
12.98, 0
13.00, 0
13.02, 0
13.04, 0
13.06, 0
13.08, 0
13.10, 0
13.12, 0
13.14, 0
13.16, 0
13.18, 0
13.20, 0
13.22, 0
13.24, 0
13.26, 0
13.28, 0
13.30, 0
13.32, 0
13.34, 0
13.36, 0
13.38, 0
13.40, 0
13.42, 0
13.44, 0
13.46, 0
13.48, 0
13.50, 0
13.52, 0
13.54, 0
13.56, 0
13.58, 0
13.60, 0
13.62, 0
13.64, 0
13.66, 0
13.68, 0
13.70, 0
13.72, 0
13.74, 0
13.76, 0
13.78, 0
13.80, 0
13.82, 0
13.84, 0
13.86, 0
13.88, 0
13.90, 0
13.92, 0
13.94, 0
13.96, 0
13.98, 0
14.00, 0
14.02, 0
14.04, 0
14.06, 0
14.08, 0
14.10, 0
14.12, 0
14.14, 0
14.16, 0
14.18, 0
14.20, 0
14.22, 0
14.24, 0
14.26, 0
14.28, 0
14.30, 0
14.32, 0
14.34, 0
14.36, 0
14.38, 0
14.40, 0
14.42, 0
14.44, 0
14.46, 0
14.48, 0
14.50, 0
14.52, 0
14.54, 0
14.56, 0
14.58, 0
14.60, 0
14.62, 0
14.64, 0
14.66, 0
14.68, 0
14.70, 0
14.72, 0
14.74, 0
14.76, 0
14.78, 0
14.80, 0
14.82, 0
14.84, 0
14.86, 0
14.88, 0
14.90, 0
14.92, 0
14.94, 0
14.96, 0
14.98, 0
15.00, 0
15.02, 0
15.04, 0
15.06, 0
15.08, 0
15.10, 0
15.12, 0
15.14, 0
15.16, 0
15.18, 0
15.20, 0
15.22, 0
15.24, 0
15.26, 0
15.28, 0
15.30, 0
15.32, 0
15.34, 0
15.36, 0
15.38, 0
15.40, 0
15.42, 0
15.44, 0
15.46, 0
15.48, 0
15.50, 0
15.52, 0
15.54, 0
15.56, 0
15.58, 0
15.60, 0
15.62, 0
15.64, 0
15.66, 0
15.68, 0
15.70, 0
15.72, 0
15.74, 0
15.76, 0
15.78, 0
15.80, 0
15.82, 0
15.84, 0
15.86, 0
15.88, 0
15.90, 0
15.92, 0
15.94, 0
15.96, 0
15.98, 0
16.00, 0
16.02, 0
16.04, 0
16.06, 0
16.08, 0
16.10, 0
16.12, 0
16.14, 0
16.16, 0
16.18, 0
16.20, 0
16.22, 0
16.24, 0
16.26, 0
16.28, 0
16.30, 0
16.32, 0
16.34, 0
16.36, 0
16.38, 0
16.40, 0
16.42, 0
16.44, 0
16.46, 0
16.48, 0
16.50, 0
16.52, 0
16.54, 0
16.56, 0
16.58, 0
16.60, 0
16.62, 0
16.64, 0
16.66, 0
16.68, 0
16.70, 0
16.72, 0
16.74, 0
16.76, 0
16.78, 0
16.80, 0
16.82, 0
16.84, 0
16.86, 0
16.88, 0
16.90, 0
16.92, 0
16.94, 0
16.96, 0
16.98, 0
17.00, 0
17.02, 0
17.04, 0
17.06, 0
17.08, 0
17.10, 0
17.12, 0
17.14, 0
17.16, 0
17.18, 0
17.20, 0
17.22, 0
17.24, 0
17.26, 0
17.28, 0
17.30, 0
17.32, 0
17.34, 0
17.36, 0
17.38, 0
17.40, 0
17.42, 0
17.44, 0
17.46, 0
17.48, 0
17.50, 0
17.52, 0
17.54, 0
17.56, 0
17.58, 0
17.60, 0
17.62, 0
17.64, 0
17.66, 0
17.68, 0
17.70, 0
17.72, 0
17.74, 0
17.76, 0
17.78, 0
17.80, 0
17.82, 0
17.84, 0
17.86, 0
17.88, 0
17.90, 0
17.92, 0
17.94, 0
17.96, 0
17.98, 0
18.00, 0
18.02, 0
18.04, 0
18.06, 0
18.08, 0
18.10, 0
18.12, 0
18.14, 0
18.16, 0
18.18, 0
18.20, 0
18.22, 0
18.24, 0
18.26, 0
18.28, 0
18.30, 0
18.32, 0
18.34, 0
18.36, 0
18.38, 0
18.40, 0
18.42, 0
18.44, 0
18.46, 0
18.48, 0
18.50, 0
18.52, 0
18.54, 0
18.56, 0
18.58, 0
18.60, 0
18.62, 0
18.64, 0
18.66, 0
18.68, 0
18.70, 0
18.72, 0
18.74, 0
18.76, 0
18.78, 0
18.80, 0
18.82, 0
18.84, 0
18.86, 0
18.88, 0
18.90, 0
18.92, 0
18.94, 0
18.96, 0
18.98, 0
19.00, 0
19.02, 0
19.04, 0
19.06, 0
19.08, 0
19.10, 0
19.12, 0
19.14, 0
19.16, 0
19.18, 0
19.20, 0
19.22, 0
19.24, 0
19.26, 0
19.28, 0
19.30, 0
19.32, 0
19.34, 0
19.36, 0
19.38, 0
19.40, 0
19.42, 0
19.44, 0
19.46, 0
19.48, 0
19.50, 0
19.52, 0
19.54, 0
19.56, 0
19.58, 0
19.60, 0
19.62, 0
19.64, 0
19.66, 0
19.68, 0
19.70, 0
19.72, 0
19.74, 0
19.76, 0
19.78, 0
19.80, 0
19.82, 0
19.84, 0
19.86, 0
19.88, 0
19.90, 0
19.92, 0
19.94, 0
19.96, 0
19.98, 0
20.00, 0
20.02, 0
20.04, 0
20.06, 0
20.08, 0
20.10, 0
20.12, 0
20.14, 0
20.16, 0
20.18, 0
20.20, 0
20.22, 0
20.24, 0
20.26, 0
20.28, 0
20.30, 0
20.32, 0
20.34, 0
20.36, 0
20.38, 0
20.40, 0
20.42, 0
20.44, 0
20.46, 0
20.47, 0
#ENDOFDATA   :