File: Scripts/hBN second lab/RAW output/bn15kv/Project_001.EMSA
#FORMAT      : EMSA/MAS Spectral Data File
#VERSION     : 1.0
#TITLE       :
#DATE        : 24-Nov-2021
#TIME        : 16:20
#OWNER       : EPMAUser
#NPOINTS     : 2048.
#NCOLUMNS    : 2.
#XUNITS      : Energy (keV)
#YUNITS      : Intensity
#DATATYPE    : XY
#XPERCHAN    : 0.01
#OFFSET      : 0.00
#CHOFFSET    : 0.
#XLABEL      : X-RAY ENERGY
#YLABEL      : X-RAY INTENSITY
#BEAMKV      : 15.000
#LIVETIME    : 51.430
#REALTIME    : 60.250
#SPECTRUM    : DATA BEGINS HERE
0.00, 0
0.02, 0
0.04, 0
0.06, 0
0.08, 0
0.10, 0
0.12, 731
0.14, 4380
0.16, 12897
0.18, 15455
0.20, 7835
0.22, 3733
0.24, 6705
0.26, 12206
0.28, 11215
0.30, 5117
0.32, 3004
0.34, 7551
0.36, 23531
0.38, 39428
0.40, 30895
0.42, 11744
0.44, 3451
0.46, 4121
0.48, 11919
0.50, 29856
0.52, 39603
0.54, 25982
0.56, 9093
0.58, 2586
0.60, 1474
0.62, 1406
0.64, 1478
0.66, 1569
0.68, 1579
0.70, 1473
0.72, 1582
0.74, 1625
0.76, 1591
0.78, 1569
0.80, 1529
0.82, 1525
0.84, 1584
0.86, 1500
0.88, 1550
0.90, 1578
0.92, 1563
0.94, 1510
0.96, 1395
0.98, 1342
1.00, 1354
1.02, 1334
1.04, 1314
1.06, 1290
1.08, 1229
1.10, 1155
1.12, 1189
1.14, 1180
1.16, 1172
1.18, 1173
1.20, 1141
1.22, 1133
1.24, 1122
1.26, 1004
1.28, 1107
1.30, 1043
1.32, 1052
1.34, 1048
1.36, 994
1.38, 1064
1.40, 1690
1.42, 3988
1.44, 9278
1.46, 15761
1.48, 18271
1.50, 14093
1.52, 7713
1.54, 3383
1.56, 1632
1.58, 1065
1.60, 776
1.62, 672
1.64, 722
1.66, 614
1.68, 632
1.70, 631
1.72, 618
1.74, 584
1.76, 558
1.78, 551
1.80, 533
1.82, 550
1.84, 533
1.86, 492
1.88, 494
1.90, 455
1.92, 465
1.94, 435
1.96, 397
1.98, 463
2.00, 423
2.02, 426
2.04, 367
2.06, 404
2.08, 366
2.10, 374
2.12, 336
2.14, 330
2.16, 352
2.18, 363
2.20, 319
2.22, 288
2.24, 309
2.26, 268
2.28, 262
2.30, 275
2.32, 265
2.34, 238
2.36, 238
2.38, 238
2.40, 247
2.42, 243
2.44, 221
2.46, 232
2.48, 215
2.50, 203
2.52, 178
2.54, 189
2.56, 204
2.58, 174
2.60, 199
2.62, 178
2.64, 168
2.66, 185
2.68, 177
2.70, 164
2.72, 185
2.74, 144
2.76, 141
2.78, 155
2.80, 139
2.82, 112
2.84, 135
2.86, 134
2.88, 118
2.90, 113
2.92, 150
2.94, 120
2.96, 133
2.98, 123
3.00, 125
3.02, 98
3.04, 91
3.06, 71
3.08, 72
3.10, 101
3.12, 77
3.14, 93
3.16, 80
3.18, 77
3.20, 77
3.22, 67
3.24, 83
3.26, 69
3.28, 63
3.30, 51
3.32, 56
3.34, 51
3.36, 58
3.38, 55
3.40, 51
3.42, 52
3.44, 44
3.46, 40
3.48, 32
3.50, 27
3.52, 33
3.54, 37
3.56, 27
3.58, 27
3.60, 36
3.62, 26
3.64, 27
3.66, 24
3.68, 23
3.70, 23
3.72, 20
3.74, 13
3.76, 20
3.78, 15
3.80, 16
3.82, 11
3.84, 15
3.86, 10
3.88, 10
3.90, 11
3.92, 10
3.94, 10
3.96, 7
3.98, 13
4.00, 8
4.02, 8
4.04, 10
4.06, 11
4.08, 6
4.10, 12
4.12, 3
4.14, 6
4.16, 11
4.18, 6
4.20, 11
4.22, 5
4.24, 4
4.26, 4
4.28, 9
4.30, 6
4.32, 4
4.34, 4
4.36, 0
4.38, 1
4.40, 4
4.42, 4
4.44, 2
4.46, 3
4.48, 3
4.50, 5
4.52, 2
4.54, 4
4.56, 0
4.58, 6
4.60, 2
4.62, 3
4.64, 4
4.66, 0
4.68, 2
4.70, 2
4.72, 1
4.74, 5
4.76, 2
4.78, 1
4.80, 1
4.82, 1
4.84, 3
4.86, 2
4.88, 2
4.90, 3
4.92, 3
4.94, 3
4.96, 3
4.98, 2
5.00, 4
5.02, 0
5.04, 2
5.06, 4
5.08, 2
5.10, 2
5.12, 3
5.14, 3
5.16, 1
5.18, 3
5.20, 3
5.22, 1
5.24, 1
5.26, 1
5.28, 4
5.30, 0
5.32, 1
5.34, 0
5.36, 1
5.38, 1
5.40, 4
5.42, 2
5.44, 0
5.46, 2
5.48, 0
5.50, 0
5.52, 2
5.54, 1
5.56, 1
5.58, 3
5.60, 2
5.62, 3
5.64, 0
5.66, 0
5.68, 1
5.70, 2
5.72, 0
5.74, 2
5.76, 2
5.78, 1
5.80, 1
5.82, 1
5.84, 3
5.86, 2
5.88, 3
5.90, 0
5.92, 3
5.94, 0
5.96, 0
5.98, 3
6.00, 0
6.02, 1
6.04, 0
6.06, 1
6.08, 0
6.10, 2
6.12, 0
6.14, 1
6.16, 2
6.18, 3
6.20, 0
6.22, 0
6.24, 1
6.26, 0
6.28, 1
6.30, 1
6.32, 1
6.34, 3
6.36, 2
6.38, 3
6.40, 3
6.42, 0
6.44, 1
6.46, 1
6.48, 3
6.50, 0
6.52, 1
6.54, 2
6.56, 0
6.58, 2
6.60, 0
6.62, 0
6.64, 0
6.66, 1
6.68, 0
6.70, 2
6.72, 2
6.74, 1
6.76, 1
6.78, 1
6.80, 0
6.82, 1
6.84, 1
6.86, 1
6.88, 1
6.90, 4
6.92, 1
6.94, 1
6.96, 1
6.98, 0
7.00, 1
7.02, 1
7.04, 0
7.06, 2
7.08, 0
7.10, 0
7.12, 0
7.14, 2
7.16, 0
7.18, 0
7.20, 0
7.22, 0
7.24, 1
7.26, 2
7.28, 0
7.30, 5
7.32, 4
7.34, 3
7.36, 4
7.38, 11
7.40, 10
7.42, 8
7.44, 8
7.46, 5
7.48, 1
7.50, 5
7.52, 2
7.54, 2
7.56, 0
7.58, 0
7.60, 6
7.62, 0
7.64, 4
7.66, 0
7.68, 0
7.70, 1
7.72, 0
7.74, 3
7.76, 1
7.78, 0
7.80, 1
7.82, 1
7.84, 3
7.86, 0
7.88, 0
7.90, 4
7.92, 1
7.94, 1
7.96, 1
7.98, 5
8.00, 0
8.02, 1
8.04, 0
8.06, 1
8.08, 3
8.10, 2
8.12, 1
8.14, 0
8.16, 1
8.18, 0
8.20, 3
8.22, 0
8.24, 2
8.26, 1
8.28, 2
8.30, 1
8.32, 2
8.34, 1
8.36, 1
8.38, 0
8.40, 1
8.42, 0
8.44, 0
8.46, 0
8.48, 0
8.50, 1
8.52, 0
8.54, 0
8.56, 2
8.58, 1
8.60, 1
8.62, 0
8.64, 2
8.66, 1
8.68, 2
8.70, 2
8.72, 1
8.74, 2
8.76, 0
8.78, 1
8.80, 2
8.82, 1
8.84, 0
8.86, 0
8.88, 0
8.90, 1
8.92, 0
8.94, 0
8.96, 0
8.98, 1
9.00, 1
9.02, 0
9.04, 0
9.06, 0
9.08, 0
9.10, 0
9.12, 0
9.14, 0
9.16, 0
9.18, 0
9.20, 0
9.22, 0
9.24, 1
9.26, 0
9.28, 0
9.30, 0
9.32, 1
9.34, 0
9.36, 1
9.38, 1
9.40, 0
9.42, 2
9.44, 0
9.46, 0
9.48, 0
9.50, 0
9.52, 1
9.54, 0
9.56, 0
9.58, 0
9.60, 0
9.62, 0
9.64, 0
9.66, 0
9.68, 1
9.70, 1
9.72, 0
9.74, 1
9.76, 0
9.78, 0
9.80, 0
9.82, 1
9.84, 0
9.86, 0
9.88, 2
9.90, 0
9.92, 0
9.94, 0
9.96, 0
9.98, 0
10.00, 1
10.02, 1
10.04, 1
10.06, 1
10.08, 0
10.10, 0
10.12, 0
10.14, 1
10.16, 0
10.18, 0
10.20, 1
10.22, 1
10.24, 1
10.26, 1
10.28, 0
10.30, 0
10.32, 0
10.34, 0
10.36, 0
10.38, 0
10.40, 0
10.42, 0
10.44, 0
10.46, 1
10.48, 0
10.50, 0
10.52, 1
10.54, 0
10.56, 0
10.58, 0
10.60, 0
10.62, 0
10.64, 0
10.66, 0
10.68, 0
10.70, 0
10.72, 0
10.74, 0
10.76, 0
10.78, 0
10.80, 1
10.82, 0
10.84, 1
10.86, 1
10.88, 0
10.90, 0
10.92, 1
10.94, 0
10.96, 1
10.98, 1
11.00, 0
11.02, 0
11.04, 0
11.06, 0
11.08, 0
11.10, 0
11.12, 0
11.14, 0
11.16, 0
11.18, 0
11.20, 1
11.22, 0
11.24, 0
11.26, 0
11.28, 0
11.30, 0
11.32, 1
11.34, 0
11.36, 0
11.38, 0
11.40, 0
11.42, 0
11.44, 0
11.46, 1
11.48, 1
11.50, 0
11.52, 0
11.54, 1
11.56, 0
11.58, 0
11.60, 2
11.62, 0
11.64, 0
11.66, 1
11.68, 1
11.70, 0
11.72, 0
11.74, 0
11.76, 1
11.78, 0
11.80, 0
11.82, 0
11.84, 0
11.86, 0
11.88, 0
11.90, 0
11.92, 0
11.94, 0
11.96, 0
11.98, 0
12.00, 0
12.02, 1
12.04, 0
12.06, 1
12.08, 0
12.10, 0
12.12, 0
12.14, 0
12.16, 0
12.18, 0
12.20, 0
12.22, 0
12.24, 0
12.26, 0
12.28, 0
12.30, 0
12.32, 0
12.34, 0
12.36, 0
12.38, 0
12.40, 0
12.42, 0
12.44, 0
12.46, 1
12.48, 0
12.50, 0
12.52, 0
12.54, 0
12.56, 0
12.58, 0
12.60, 0
12.62, 0
12.64, 1
12.66, 0
12.68, 0
12.70, 0
12.72, 0
12.74, 2
12.76, 0
12.78, 0
12.80, 0
12.82, 1
12.84, 1
12.86, 0
12.88, 0
12.90, 0
12.92, 0
12.94, 0
12.96, 0
12.98, 0
13.00, 0
13.02, 0
13.04, 1
13.06, 0
13.08, 0
13.10, 0
13.12, 0
13.14, 0
13.16, 0
13.18, 0
13.20, 0
13.22, 0
13.24, 0
13.26, 0
13.28, 0
13.30, 0
13.32, 0
13.34, 0
13.36, 0
13.38, 0
13.40, 0
13.42, 0
13.44, 0
13.46, 0
13.48, 0
13.50, 0
13.52, 0
13.54, 0
13.56, 0
13.58, 0
13.60, 0
13.62, 0
13.64, 0
13.66, 0
13.68, 0
13.70, 0
13.72, 0
13.74, 0
13.76, 0
13.78, 0
13.80, 0
13.82, 0
13.84, 0
13.86, 0
13.88, 0
13.90, 0
13.92, 0
13.94, 0
13.96, 0
13.98, 0
14.00, 0
14.02, 0
14.04, 0
14.06, 0
14.08, 0
14.10, 0
14.12, 0
14.14, 0
14.16, 0
14.18, 0
14.20, 0
14.22, 0
14.24, 0
14.26, 0
14.28, 0
14.30, 0
14.32, 0
14.34, 0
14.36, 0
14.38, 0
14.40, 0
14.42, 0
14.44, 0
14.46, 0
14.48, 0
14.50, 0
14.52, 0
14.54, 0
14.56, 0
14.58, 0
14.60, 0
14.62, 0
14.64, 0
14.66, 0
14.68, 0
14.70, 0
14.72, 0
14.74, 0
14.76, 0
14.78, 0
14.80, 0
14.82, 0
14.84, 0
14.86, 0
14.88, 0
14.90, 0
14.92, 0
14.94, 0
14.96, 0
14.98, 0
15.00, 0
15.02, 0
15.04, 0
15.06, 0
15.08, 0
15.10, 0
15.12, 0
15.14, 0
15.16, 0
15.18, 0
15.20, 0
15.22, 0
15.24, 0
15.26, 0
15.28, 0
15.30, 0
15.32, 0
15.34, 0
15.36, 0
15.38, 0
15.40, 0
15.42, 0
15.44, 0
15.46, 0
15.48, 0
15.50, 0
15.52, 0
15.54, 0
15.56, 0
15.58, 0
15.60, 0
15.62, 0
15.64, 0
15.66, 0
15.68, 0
15.70, 0
15.72, 0
15.74, 0
15.76, 0
15.78, 0
15.80, 0
15.82, 0
15.84, 0
15.86, 0
15.88, 0
15.90, 0
15.92, 0
15.94, 0
15.96, 0
15.98, 0
16.00, 0
16.02, 0
16.04, 0
16.06, 0
16.08, 0
16.10, 0
16.12, 0
16.14, 0
16.16, 0
16.18, 0
16.20, 0
16.22, 0
16.24, 0
16.26, 0
16.28, 0
16.30, 0
16.32, 0
16.34, 0
16.36, 0
16.38, 0
16.40, 0
16.42, 0
16.44, 0
16.46, 0
16.48, 0
16.50, 0
16.52, 0
16.54, 0
16.56, 0
16.58, 0
16.60, 0
16.62, 0
16.64, 0
16.66, 0
16.68, 0
16.70, 0
16.72, 0
16.74, 0
16.76, 0
16.78, 0
16.80, 0
16.82, 0
16.84, 0
16.86, 0
16.88, 0
16.90, 0
16.92, 0
16.94, 0
16.96, 0
16.98, 0
17.00, 0
17.02, 0
17.04, 0
17.06, 0
17.08, 0
17.10, 0
17.12, 0
17.14, 0
17.16, 0
17.18, 0
17.20, 0
17.22, 0
17.24, 0
17.26, 0
17.28, 0
17.30, 0
17.32, 0
17.34, 0
17.36, 0
17.38, 0
17.40, 0
17.42, 0
17.44, 0
17.46, 0
17.48, 0
17.50, 0
17.52, 0
17.54, 0
17.56, 0
17.58, 0
17.60, 0
17.62, 0
17.64, 0
17.66, 0
17.68, 0
17.70, 0
17.72, 0
17.74, 0
17.76, 0
17.78, 0
17.80, 0
17.82, 0
17.84, 0
17.86, 0
17.88, 0
17.90, 0
17.92, 0
17.94, 0
17.96, 0
17.98, 0
18.00, 0
18.02, 0
18.04, 0
18.06, 0
18.08, 0
18.10, 0
18.12, 0
18.14, 0
18.16, 0
18.18, 0
18.20, 0
18.22, 0
18.24, 0
18.26, 0
18.28, 0
18.30, 0
18.32, 0
18.34, 0
18.36, 0
18.38, 0
18.40, 0
18.42, 0
18.44, 0
18.46, 0
18.48, 0
18.50, 0
18.52, 0
18.54, 0
18.56, 0
18.58, 0
18.60, 0
18.62, 0
18.64, 0
18.66, 0
18.68, 0
18.70, 0
18.72, 0
18.74, 0
18.76, 0
18.78, 0
18.80, 0
18.82, 0
18.84, 0
18.86, 0
18.88, 0
18.90, 0
18.92, 0
18.94, 0
18.96, 0
18.98, 0
19.00, 0
19.02, 0
19.04, 0
19.06, 0
19.08, 0
19.10, 0
19.12, 0
19.14, 0
19.16, 0
19.18, 0
19.20, 0
19.22, 0
19.24, 0
19.26, 0
19.28, 0
19.30, 0
19.32, 0
19.34, 0
19.36, 0
19.38, 0
19.40, 0
19.42, 0
19.44, 0
19.46, 0
19.48, 0
19.50, 0
19.52, 0
19.54, 0
19.56, 0
19.58, 0
19.60, 0
19.62, 0
19.64, 0
19.66, 0
19.68, 0
19.70, 0
19.72, 0
19.74, 0
19.76, 0
19.78, 0
19.80, 0
19.82, 0
19.84, 0
19.86, 0
19.88, 0
19.90, 0
19.92, 0
19.94, 0
19.96, 0
19.98, 0
20.00, 0
20.02, 0
20.04, 0
20.06, 0
20.08, 0
20.10, 0
20.12, 0
20.14, 0
20.16, 0
20.18, 0
20.20, 0
20.22, 0
20.24, 0
20.26, 0
20.28, 0
20.30, 0
20.32, 0
20.34, 0
20.36, 0
20.38, 0
20.40, 0
20.42, 0
20.44, 0
20.46, 0
20.47, 0
#ENDOFDATA   :