File: Scripts/hBN second lab/RAW output/bn15kvc/Project_001.EMSA
#FORMAT      : EMSA/MAS Spectral Data File
#VERSION     : 1.0
#TITLE       :
#DATE        : 24-Nov-2021
#TIME        : 16:23
#OWNER       : EPMAUser
#NPOINTS     : 2048.
#NCOLUMNS    : 2.
#XUNITS      : Energy (keV)
#YUNITS      : Intensity
#DATATYPE    : XY
#XPERCHAN    : 0.01
#OFFSET      : 0.00
#CHOFFSET    : 0.
#XLABEL      : X-RAY ENERGY
#YLABEL      : X-RAY INTENSITY
#BEAMKV      : 15.000
#LIVETIME    : 48.030
#REALTIME    : 56.390
#SPECTRUM    : DATA BEGINS HERE
0.00, 0
0.02, 0
0.04, 0
0.06, 0
0.08, 0
0.10, 0
0.12, 641
0.14, 3895
0.16, 12126
0.18, 14745
0.20, 7357
0.22, 3664
0.24, 6289
0.26, 11661
0.28, 10939
0.30, 4850
0.32, 2810
0.34, 7299
0.36, 22162
0.38, 37233
0.40, 29371
0.42, 10878
0.44, 3437
0.46, 3989
0.48, 11717
0.50, 29079
0.52, 38029
0.54, 24816
0.56, 8675
0.58, 2433
0.60, 1472
0.62, 1441
0.64, 1405
0.66, 1493
0.68, 1482
0.70, 1433
0.72, 1475
0.74, 1437
0.76, 1543
0.78, 1503
0.80, 1466
0.82, 1461
0.84, 1372
0.86, 1427
0.88, 1442
0.90, 1465
0.92, 1411
0.94, 1308
0.96, 1328
0.98, 1284
1.00, 1291
1.02, 1270
1.04, 1186
1.06, 1226
1.08, 1138
1.10, 1109
1.12, 1076
1.14, 1155
1.16, 1108
1.18, 1112
1.20, 1000
1.22, 1032
1.24, 1056
1.26, 1043
1.28, 985
1.30, 1010
1.32, 1054
1.34, 981
1.36, 957
1.38, 1025
1.40, 1563
1.42, 3790
1.44, 8864
1.46, 15188
1.48, 17539
1.50, 13644
1.52, 7228
1.54, 3109
1.56, 1508
1.58, 969
1.60, 804
1.62, 662
1.64, 635
1.66, 632
1.68, 577
1.70, 627
1.72, 579
1.74, 527
1.76, 539
1.78, 520
1.80, 554
1.82, 511
1.84, 482
1.86, 521
1.88, 405
1.90, 442
1.92, 410
1.94, 424
1.96, 401
1.98, 390
2.00, 412
2.02, 389
2.04, 379
2.06, 331
2.08, 364
2.10, 344
2.12, 311
2.14, 272
2.16, 272
2.18, 258
2.20, 272
2.22, 292
2.24, 284
2.26, 268
2.28, 264
2.30, 262
2.32, 276
2.34, 260
2.36, 207
2.38, 235
2.40, 221
2.42, 217
2.44, 203
2.46, 206
2.48, 215
2.50, 208
2.52, 180
2.54, 201
2.56, 189
2.58, 177
2.60, 171
2.62, 189
2.64, 170
2.66, 153
2.68, 142
2.70, 145
2.72, 139
2.74, 148
2.76, 133
2.78, 123
2.80, 118
2.82, 116
2.84, 112
2.86, 125
2.88, 124
2.90, 124
2.92, 107
2.94, 115
2.96, 103
2.98, 108
3.00, 114
3.02, 110
3.04, 89
3.06, 98
3.08, 82
3.10, 94
3.12, 97
3.14, 72
3.16, 82
3.18, 67
3.20, 64
3.22, 56
3.24, 50
3.26, 54
3.28, 54
3.30, 52
3.32, 56
3.34, 56
3.36, 43
3.38, 45
3.40, 56
3.42, 33
3.44, 34
3.46, 29
3.48, 29
3.50, 35
3.52, 37
3.54, 34
3.56, 22
3.58, 26
3.60, 31
3.62, 20
3.64, 21
3.66, 23
3.68, 15
3.70, 22
3.72, 15
3.74, 18
3.76, 12
3.78, 8
3.80, 7
3.82, 10
3.84, 17
3.86, 6
3.88, 8
3.90, 8
3.92, 8
3.94, 9
3.96, 4
3.98, 5
4.00, 6
4.02, 4
4.04, 3
4.06, 4
4.08, 2
4.10, 3
4.12, 2
4.14, 7
4.16, 3
4.18, 4
4.20, 1
4.22, 3
4.24, 5
4.26, 2
4.28, 2
4.30, 3
4.32, 3
4.34, 5
4.36, 0
4.38, 6
4.40, 0
4.42, 0
4.44, 0
4.46, 1
4.48, 1
4.50, 1
4.52, 6
4.54, 5
4.56, 1
4.58, 1
4.60, 2
4.62, 3
4.64, 6
4.66, 4
4.68, 1
4.70, 4
4.72, 4
4.74, 2
4.76, 0
4.78, 1
4.80, 4
4.82, 2
4.84, 1
4.86, 2
4.88, 2
4.90, 1
4.92, 0
4.94, 2
4.96, 1
4.98, 1
5.00, 1
5.02, 1
5.04, 2
5.06, 2
5.08, 2
5.10, 0
5.12, 0
5.14, 2
5.16, 1
5.18, 1
5.20, 2
5.22, 2
5.24, 1
5.26, 3
5.28, 0
5.30, 2
5.32, 0
5.34, 3
5.36, 1
5.38, 1
5.40, 0
5.42, 1
5.44, 1
5.46, 0
5.48, 0
5.50, 2
5.52, 2
5.54, 1
5.56, 2
5.58, 0
5.60, 0
5.62, 0
5.64, 1
5.66, 1
5.68, 2
5.70, 2
5.72, 2
5.74, 2
5.76, 1
5.78, 0
5.80, 2
5.82, 0
5.84, 1
5.86, 0
5.88, 0
5.90, 1
5.92, 1
5.94, 3
5.96, 2
5.98, 1
6.00, 2
6.02, 0
6.04, 0
6.06, 1
6.08, 1
6.10, 0
6.12, 1
6.14, 2
6.16, 0
6.18, 2
6.20, 0
6.22, 1
6.24, 0
6.26, 2
6.28, 3
6.30, 0
6.32, 0
6.34, 1
6.36, 0
6.38, 2
6.40, 1
6.42, 0
6.44, 2
6.46, 1
6.48, 0
6.50, 0
6.52, 2
6.54, 1
6.56, 0
6.58, 0
6.60, 1
6.62, 0
6.64, 0
6.66, 0
6.68, 0
6.70, 1
6.72, 1
6.74, 1
6.76, 2
6.78, 0
6.80, 1
6.82, 1
6.84, 0
6.86, 1
6.88, 0
6.90, 0
6.92, 2
6.94, 0
6.96, 1
6.98, 2
7.00, 0
7.02, 0
7.04, 1
7.06, 0
7.08, 1
7.10, 1
7.12, 1
7.14, 0
7.16, 0
7.18, 1
7.20, 1
7.22, 1
7.24, 3
7.26, 0
7.28, 3
7.30, 1
7.32, 3
7.34, 5
7.36, 6
7.38, 4
7.40, 9
7.42, 8
7.44, 5
7.46, 5
7.48, 2
7.50, 1
7.52, 2
7.54, 0
7.56, 2
7.58, 0
7.60, 2
7.62, 1
7.64, 0
7.66, 1
7.68, 2
7.70, 1
7.72, 0
7.74, 3
7.76, 1
7.78, 0
7.80, 0
7.82, 0
7.84, 0
7.86, 0
7.88, 1
7.90, 0
7.92, 2
7.94, 0
7.96, 0
7.98, 1
8.00, 2
8.02, 2
8.04, 0
8.06, 1
8.08, 1
8.10, 0
8.12, 1
8.14, 0
8.16, 3
8.18, 3
8.20, 0
8.22, 0
8.24, 0
8.26, 0
8.28, 2
8.30, 0
8.32, 0
8.34, 0
8.36, 0
8.38, 1
8.40, 0
8.42, 0
8.44, 0
8.46, 0
8.48, 0
8.50, 0
8.52, 1
8.54, 1
8.56, 0
8.58, 2
8.60, 0
8.62, 2
8.64, 1
8.66, 1
8.68, 1
8.70, 0
8.72, 0
8.74, 0
8.76, 0
8.78, 0
8.80, 1
8.82, 0
8.84, 0
8.86, 0
8.88, 0
8.90, 0
8.92, 1
8.94, 0
8.96, 0
8.98, 0
9.00, 0
9.02, 0
9.04, 0
9.06, 0
9.08, 0
9.10, 0
9.12, 0
9.14, 1
9.16, 0
9.18, 0
9.20, 0
9.22, 0
9.24, 0
9.26, 0
9.28, 0
9.30, 0
9.32, 0
9.34, 0
9.36, 0
9.38, 0
9.40, 0
9.42, 1
9.44, 1
9.46, 0
9.48, 0
9.50, 0
9.52, 1
9.54, 0
9.56, 0
9.58, 1
9.60, 1
9.62, 0
9.64, 0
9.66, 0
9.68, 0
9.70, 1
9.72, 0
9.74, 2
9.76, 2
9.78, 0
9.80, 0
9.82, 0
9.84, 0
9.86, 0
9.88, 0
9.90, 0
9.92, 0
9.94, 0
9.96, 1
9.98, 0
10.00, 1
10.02, 0
10.04, 1
10.06, 0
10.08, 0
10.10, 0
10.12, 0
10.14, 1
10.16, 0
10.18, 0
10.20, 0
10.22, 1
10.24, 1
10.26, 1
10.28, 0
10.30, 1
10.32, 0
10.34, 0
10.36, 0
10.38, 0
10.40, 1
10.42, 0
10.44, 1
10.46, 0
10.48, 0
10.50, 0
10.52, 2
10.54, 0
10.56, 0
10.58, 0
10.60, 1
10.62, 0
10.64, 0
10.66, 0
10.68, 0
10.70, 0
10.72, 1
10.74, 0
10.76, 1
10.78, 1
10.80, 0
10.82, 0
10.84, 0
10.86, 0
10.88, 0
10.90, 1
10.92, 0
10.94, 0
10.96, 1
10.98, 0
11.00, 1
11.02, 0
11.04, 0
11.06, 0
11.08, 0
11.10, 1
11.12, 0
11.14, 1
11.16, 1
11.18, 0
11.20, 0
11.22, 1
11.24, 0
11.26, 0
11.28, 1
11.30, 0
11.32, 0
11.34, 0
11.36, 0
11.38, 0
11.40, 2
11.42, 0
11.44, 0
11.46, 0
11.48, 0
11.50, 0
11.52, 1
11.54, 0
11.56, 0
11.58, 0
11.60, 0
11.62, 0
11.64, 0
11.66, 0
11.68, 0
11.70, 0
11.72, 0
11.74, 0
11.76, 1
11.78, 0
11.80, 0
11.82, 0
11.84, 0
11.86, 1
11.88, 0
11.90, 0
11.92, 0
11.94, 1
11.96, 0
11.98, 0
12.00, 0
12.02, 0
12.04, 1
12.06, 0
12.08, 0
12.10, 0
12.12, 0
12.14, 0
12.16, 0
12.18, 0
12.20, 0
12.22, 0
12.24, 0
12.26, 0
12.28, 0
12.30, 1
12.32, 0
12.34, 0
12.36, 0
12.38, 0
12.40, 0
12.42, 0
12.44, 0
12.46, 0
12.48, 0
12.50, 0
12.52, 0
12.54, 0
12.56, 0
12.58, 0
12.60, 0
12.62, 0
12.64, 0
12.66, 0
12.68, 1
12.70, 0
12.72, 0
12.74, 0
12.76, 0
12.78, 0
12.80, 0
12.82, 0
12.84, 0
12.86, 0
12.88, 0
12.90, 0
12.92, 0
12.94, 0
12.96, 0
12.98, 0
13.00, 0
13.02, 0
13.04, 0
13.06, 0
13.08, 0
13.10, 0
13.12, 0
13.14, 0
13.16, 0
13.18, 0
13.20, 0
13.22, 0
13.24, 0
13.26, 1
13.28, 0
13.30, 0
13.32, 1
13.34, 0
13.36, 0
13.38, 0
13.40, 0
13.42, 0
13.44, 0
13.46, 0
13.48, 0
13.50, 0
13.52, 0
13.54, 0
13.56, 0
13.58, 0
13.60, 0
13.62, 0
13.64, 0
13.66, 0
13.68, 0
13.70, 0
13.72, 0
13.74, 0
13.76, 0
13.78, 0
13.80, 0
13.82, 0
13.84, 0
13.86, 0
13.88, 0
13.90, 0
13.92, 0
13.94, 0
13.96, 0
13.98, 0
14.00, 0
14.02, 0
14.04, 0
14.06, 0
14.08, 0
14.10, 0
14.12, 0
14.14, 0
14.16, 0
14.18, 0
14.20, 0
14.22, 0
14.24, 0
14.26, 0
14.28, 0
14.30, 0
14.32, 0
14.34, 0
14.36, 0
14.38, 0
14.40, 0
14.42, 0
14.44, 0
14.46, 0
14.48, 0
14.50, 0
14.52, 0
14.54, 0
14.56, 0
14.58, 0
14.60, 0
14.62, 0
14.64, 0
14.66, 0
14.68, 0
14.70, 0
14.72, 0
14.74, 0
14.76, 0
14.78, 0
14.80, 0
14.82, 0
14.84, 0
14.86, 0
14.88, 0
14.90, 0
14.92, 0
14.94, 0
14.96, 0
14.98, 0
15.00, 0
15.02, 0
15.04, 0
15.06, 0
15.08, 0
15.10, 0
15.12, 0
15.14, 0
15.16, 0
15.18, 0
15.20, 0
15.22, 0
15.24, 0
15.26, 0
15.28, 0
15.30, 0
15.32, 0
15.34, 0
15.36, 0
15.38, 0
15.40, 0
15.42, 0
15.44, 0
15.46, 0
15.48, 0
15.50, 0
15.52, 0
15.54, 0
15.56, 0
15.58, 0
15.60, 0
15.62, 0
15.64, 0
15.66, 0
15.68, 0
15.70, 0
15.72, 0
15.74, 0
15.76, 0
15.78, 0
15.80, 0
15.82, 0
15.84, 0
15.86, 0
15.88, 0
15.90, 0
15.92, 0
15.94, 0
15.96, 0
15.98, 0
16.00, 0
16.02, 0
16.04, 0
16.06, 0
16.08, 0
16.10, 0
16.12, 0
16.14, 0
16.16, 0
16.18, 0
16.20, 0
16.22, 0
16.24, 0
16.26, 0
16.28, 0
16.30, 0
16.32, 0
16.34, 0
16.36, 0
16.38, 0
16.40, 0
16.42, 0
16.44, 0
16.46, 0
16.48, 0
16.50, 0
16.52, 0
16.54, 0
16.56, 0
16.58, 0
16.60, 0
16.62, 0
16.64, 0
16.66, 0
16.68, 0
16.70, 0
16.72, 0
16.74, 0
16.76, 0
16.78, 0
16.80, 0
16.82, 0
16.84, 0
16.86, 0
16.88, 0
16.90, 0
16.92, 0
16.94, 0
16.96, 0
16.98, 0
17.00, 0
17.02, 0
17.04, 0
17.06, 0
17.08, 0
17.10, 0
17.12, 0
17.14, 0
17.16, 0
17.18, 0
17.20, 0
17.22, 0
17.24, 0
17.26, 0
17.28, 0
17.30, 0
17.32, 0
17.34, 0
17.36, 0
17.38, 0
17.40, 0
17.42, 0
17.44, 0
17.46, 0
17.48, 0
17.50, 0
17.52, 0
17.54, 0
17.56, 0
17.58, 0
17.60, 0
17.62, 0
17.64, 0
17.66, 0
17.68, 0
17.70, 0
17.72, 0
17.74, 0
17.76, 0
17.78, 0
17.80, 0
17.82, 0
17.84, 0
17.86, 0
17.88, 0
17.90, 0
17.92, 0
17.94, 0
17.96, 0
17.98, 0
18.00, 0
18.02, 0
18.04, 0
18.06, 0
18.08, 0
18.10, 0
18.12, 0
18.14, 0
18.16, 0
18.18, 0
18.20, 0
18.22, 0
18.24, 0
18.26, 0
18.28, 0
18.30, 0
18.32, 0
18.34, 0
18.36, 0
18.38, 0
18.40, 0
18.42, 0
18.44, 0
18.46, 0
18.48, 0
18.50, 0
18.52, 0
18.54, 0
18.56, 0
18.58, 0
18.60, 0
18.62, 0
18.64, 0
18.66, 0
18.68, 0
18.70, 0
18.72, 0
18.74, 0
18.76, 0
18.78, 0
18.80, 0
18.82, 0
18.84, 0
18.86, 0
18.88, 0
18.90, 0
18.92, 0
18.94, 0
18.96, 0
18.98, 0
19.00, 0
19.02, 0
19.04, 0
19.06, 0
19.08, 0
19.10, 0
19.12, 0
19.14, 0
19.16, 0
19.18, 0
19.20, 0
19.22, 0
19.24, 0
19.26, 0
19.28, 0
19.30, 0
19.32, 0
19.34, 0
19.36, 0
19.38, 0
19.40, 0
19.42, 0
19.44, 0
19.46, 0
19.48, 0
19.50, 0
19.52, 0
19.54, 0
19.56, 0
19.58, 0
19.60, 0
19.62, 0
19.64, 0
19.66, 0
19.68, 0
19.70, 0
19.72, 0
19.74, 0
19.76, 0
19.78, 0
19.80, 0
19.82, 0
19.84, 0
19.86, 0
19.88, 0
19.90, 0
19.92, 0
19.94, 0
19.96, 0
19.98, 0
20.00, 0
20.02, 0
20.04, 0
20.06, 0
20.08, 0
20.10, 0
20.12, 0
20.14, 0
20.16, 0
20.18, 0
20.20, 0
20.22, 0
20.24, 0
20.26, 0
20.28, 0
20.30, 0
20.32, 0
20.34, 0
20.36, 0
20.38, 0
20.40, 0
20.42, 0
20.44, 0
20.46, 0
20.47, 0
#ENDOFDATA   :